Folder: SESAMI_web/example_input

Note: README.md
# SESAMI_web
The interface to the SESAMI analysis tools

File: example_loading_data.aif
# comment goes here. This file is modeled after Figure 1 in Langmuir 2021, 37, 4222âˆ’4226
# Except has the same data (barring P0) as the example CSV file, in the loading section.
data_rawaifv003
_exptl_operator 'Nicole'
_exptl_date 2009-09-17T19:56:00
_exptl_instrument 'Autosorb Station 1'
_exptl_adsorptive Nitrogen
_exptl_temperature 77.3
_exptl_sample_mass 0.0339
_sample_id 'nk_DUT-6_LP_N2_114pkt'
_sample_material_id 'DUT-6'
_units_temperature K
_units_pressure Pa
_units_mass g
_units_loading mmol/g
loop_
_adsorp_pressure
_adsorp_p0
_adsorp_amount
1 101861 0.840517
5 101861 0.856914
10 101861 0.877571
20 101861 0.919942
30 101861 0.96379
40 101861 1.00821
50 101861 1.05474
60 101861 1.10426
70 101861 1.15302
80 101861 1.20466
90 101861 1.25746
100 101861 1.31548
150 101861 1.63595
200 101861 2.04791
250 101861 2.64375
300 101861 3.78804
350 101861 11.1842
400 101861 13.0714
450 101861 13.9655
500 101861 14.7813
550 101861 15.6427
600 101861 16.4136
650 101861 17.0425
700 101861 17.6534
750 101861 18.1223
800 101861 18.5277
850 101861 18.8774
900 101861 19.1975
950 101861 19.4647
1000 101861 19.7211
1500 101861 21.1536
2000 101861 21.9269
2500 101861 22.6277
3000 101861 24.1585
3500 101861 26.0196
4000 101861 26.594
4500 101861 26.9119
5000 101861 27.2744
5500 101861 27.5725
6000 101861 27.9091
6500 101861 28.3131
7000 101861 28.6813
7500 101861 29.1155
8000 101861 29.6333
8500 101861 30.2218
9000 101861 32.9714
10000 101861 34.1678
70000 101861 35.8491
80000 101861 35.997
90000 101861 35.9677
100000 101861 36.043
loop_
_desorp_pressure
_desorp_p0
_desorp_amount
97113.5 101861 57.9198
90734.6 101861 57.8301
85586.6 101861 57.7499